{
    "resourceType": "Bundle",
    "id": "1a081845-165d-4f43-b38a-38bf271a0197",
    "meta": {
        "versionId": "1",
        "lastUpdated": "2018-06-22T14:28:48.230+00:00"
    },
    "type": "collection",
    "entry": [
        {
            "id": "messageheader",
            "resource": {
                "resourceType": "MessageHeader",
                "event": {
                    "system": "http://hl7.org/fhir/message-events",
                    "code": "admin-notify",
                    "display": "admin-notify"
                },
                "destination": [
                    {
                        "name": "Alere POCT Station",
                        "endpoint": "http://127.0.0.1:9001/poct"
                    }
                ],
                "timestamp": "2018-01-01T17:00:23",
                "source": {
                    "name": "AVICENA",
                    "endpoint": "http://127.0.0.1:9000"
                },
                "focus": [
                    {
                        "id": "1",
                        "reference": "#343118fb-682d-4840-8dab-65c5eed12638"
                    }
                ]
            }
        },
        {
            "id": "messageheader.focus.1",
            "resource": {
                "resourceType": "ProcedureRequest",
                "id": "343118fb-682d-4840-8dab-65c5eed12638",
                "identifier": [
                    {
                        "value": "54269347602"
                    }
                ],
                "requisition": {
                    "value": "542693476"
                },
                "status": "active",
                "intent": "order",
                "priority": "routine",
                "category": [
                    {
                        "coding": [
                            {
                                "system": "http://snomed.info/sct",
                                "code": "405262001",
                                "display": "POCT - Point of care testing"
                            }
                        ]
                    }
                ],
                "code": {
                    "coding": [
                        {
                            "id": "cups",
                            "system": "https://github.com/interoperar/fhir-poct-profile/terminologies/poct-services-co",
                            "code": "903426",
                            "display": "HEMOGLOBINA GLICOSILADA AUTOMATIZADA"
                        },
                        {
                            "id": "lis",
                            "system": "https://github.com/interoperar/fhir-poct-profile/terminologies/poct-services-co",
                            "code": "POCT903426",
                            "display": "HEMOGLOBINA GLICOSILADA POCT"
                        }
                    ]
                },
                "subject": {
                    "reference": "#2b665d05-e7c5-455c-bf97-fcea5d81497c"
                },
                "authoredOn": "2018-01-01T17:00:23",
                "requester": {
                    "agent": {
                        "reference": "#34168b25-045a-45ad-8f16-700a13fda583"
                    }
                },
                "supportingInfo": [
                    {
                        "id": "requesterlocation",
                        "reference": "#3662348a-230c-4dca-bbf2-d78792225c18"
                    }
                ],
                "note": [
                    {
                        "text": "Se solicita pruebas diagnósticas rápidas"
                    }
                ]
            }
        },
        {
            "id": "procedurerequest.subject.1",
            "resource": {
                "resourceType": "Patient",
                "id": "2b665d05-e7c5-455c-bf97-fcea5d81497c",
                "identifier": [
                    {
                        "id": "personal",
                        "use": "official",
                        "type": {
                            "coding": [
                                {
                                    "system": "https://github.com/interoperar/fhir-local-terminologies/identifiers/personal-identifier-type-co",
                                    "code": "CC",
                                    "display": "Cédula de Ciudadanía"
                                }
                            ]
                        },
                        "value": "987654321"
                    },
                    {
                        "id": "clinical",
                        "use": "usual",
                        "value": "987654321"
                    }
                ],
                "active": true,
                "name": [
                    {
                        "family": "Moreno Reyes",
                        "given": [
                            "Mario",
                            "Alfonso"
                        ]
                    }
                ],
                "gender": "male",
                "birthDate": "1963-08-16",
                "managingOrganization": {
                    "reference": "#e04d13fe-1ce5-4da3-adba-21da70fceab7"
                }
            }
        },
        {
            "id": "procedurerequest.practitioner.1",
            "resource": {
                "resourceType": "Practitioner",
                "id": "34168b25-045a-45ad-8f16-700a13fda583",
                "identifier": [
                    {
                        "id": "personal",
                        "use": "official",
                        "type": {
                            "coding": [
                                {
                                    "system": "https://github.com/interoperar/fhir-local-terminologies/identifiers/personal-identifier-type-co",
                                    "code": "CC",
                                    "display": "Cédula de Ciudadanía"
                                }
                            ]
                        },
                        "value": "654123987"
                    }
                ],
                "active": true,
                "name": [
                    {
                        "text": "Gregorio Casas"
                    }
                ]
            }
        },
        {
            "id": "patient.managingorganization.1",
            "resource": {
                "resourceType": "Organization",
                "id": "e04d13fe-1ce5-4da3-adba-21da70fceab7",
                "identifier": [
                    {
                        "use": "official",
                        "value": "EPS005"
                    }
                ],
                "active": true,
                "type": [
                    {
                        "coding": [
                            {
                                "system": "http://hl7.org/fhir/organization-type",
                                "code": "ins",
                                "display": "Insurance Company"
                            }
                        ]
                    }
                ],
                "name": "EPS SANITAS SA"
            }
        },
        {
            "id": "patient.coverage.1",
            "resource": {
                "resourceType": "Coverage",
                "id": "coverage-example-1",
                "extension": [
                    {
                        "id": "copayment-ind",
                        "url": "https://github.com/interoperar/fhir-local-extensibility/copayment-ind",
                        "valueBoolean": false
                    }
                ],
                "identifier": [
                    {
                        "value": "987654321"
                    }
                ],
                "status": "active",
                "type": {
                    "coding": [
                        {
                            "system": "https://github.com/interoperar/fhir-local-terminologies/code-systems/coverage-type-co",
                            "code": "POS",
                            "display": "Paquete Obligatorio de Servicios"
                        }
                    ]
                },
                "beneficiary": {
                    "reference": "#2b665d05-e7c5-455c-bf97-fcea5d81497c"
                },
                "payor": [
                    {
                        "reference": "#e04d13fe-1ce5-4da3-adba-21da70fceab7"
                    }
                ]
            }
        },
        {
            "id": "procedurerequest.requesterlocation.1",
            "resource": {
                "resourceType": "Location",
                "id": "3662348a-230c-4dca-bbf2-d78792225c18",
                "identifier": [
                    {
                        "use": "usual",
                        "value": "1100110000"
                    }
                ],
                "name": "Hospital Jorge H Uribe IPS"
            }
        }
    ]
}