<?xml version="1.0" encoding="UTF-8"?>
<Bundle xmlns="http://hl7.org/fhir">
    <id value="860fbce9-3b5b-45c6-9776-ff02bde070cc"/>
    <meta>
        <versionId value="1"/>
    </meta>
    <type value="message"/>
    <entry id="messageheader">
        <resource>
            <MessageHeader>
                <event>
                    <system value="http://hl7.org/fhir/message-events"/>
                    <code value="diagnosticreport-provide"/>
                    <display value="diagnosticreport-provide"/>
                </event>
                <destination>
                    <name value="AVICENA"/>
                    <endpoint value="http://127.0.0.1:9000"/>
                </destination>
                <timestamp value="2018-01-01T17:00:23"/>
                <source>
                    <name value="Alere POCT Station"/>
                    <endpoint value="http://127.0.0.1:9001/poct"/>
                </source>
                <focus id="1">
                    <reference value="#1a081845-165d-4f43-b38a-38bf271a0197"/>
                </focus>
            </MessageHeader>
        </resource>
    </entry>
    <entry id="messageheader.focus.1">
        <resource>
            <DiagnosticReport>
                <id value="1a081845-165d-4f43-b38a-38bf271a0197"/>
                <contained>
                    <ProcedureRequest>
                        <id value="343118fb-682d-4840-8dab-65c5eed12638"/>
                        <identifier>
                            <value value="54269347602"/>
                        </identifier>
                        <requisition>
                            <value value="542693476"/>
                        </requisition>
                        <status value="active"/>
                        <intent value="order"/>
                        <priority value="routine"/>
                        <category>
                            <coding>
                                <system value="http://snomed.info/sct"/>
                                <code value="405262001"/>
                                <display value="POCT - Point of care testing"/>
                            </coding>
                        </category>
                        <code>
                            <coding id="cups">
                                <system value="https://github.com/interoperar/fhir-poct-profile/terminologies/poct-services-co"/>
                                <code value="903426"/>
                                <display value="HEMOGLOBINA GLICOSILADA AUTOMATIZADA"/>
                            </coding>
                            <coding id="lis">
                                <system value="https://github.com/interoperar/fhir-poct-profile/terminologies/poct-services-co"/>
                                <code value="POCT903426"/>
                                <display value="HEMOGLOBINA GLICOSILADA POCT"/>
                            </coding>
                        </code>
                        <subject>
                            <reference value="#2b665d05-e7c5-455c-bf97-fcea5d81497c"/>
                        </subject>
                        <authoredOn value="2018-01-01T17:00:23"/>
                        <requester>
                            <agent>
                                <reference value="#34168b25-045a-45ad-8f16-700a13fda583"/>
                            </agent>
                        </requester>
                        <supportingInfo id="requesterlocation">
                            <reference value="#3662348a-230c-4dca-bbf2-d78792225c18"/>
                        </supportingInfo>
                        <note>
                            <text value="Se solicita pruebas diagnósticas rápidas"/>
                        </note>
                    </ProcedureRequest>
                </contained>
                <contained>
                    <Patient>
                        <id value="2b665d05-e7c5-455c-bf97-fcea5d81497c"/>
                        <identifier id="personal">
                            <use value="official"/>
                            <type>
                                <coding>
                                    <system value="https://github.com/interoperar/fhir-local-terminologies/identifiers/personal-identifier-type-co"/>
                                    <code value="CC"/>
                                    <display value="Cédula de Ciudadanía"/>
                                </coding>
                            </type>
                            <value value="987654321"/>
                        </identifier>
                        <identifier id="clinical">
                            <use value="usual"/>
                            <value value="987654321"/>
                        </identifier>
                        <active value="true"/>
                        <name>
                            <family id="family-name" value="Moreno Reyes"/>
                            <given id="given-name-1" value="Mario"/>
                            <given id="given-name-2" value="Alfonso"/>
                        </name>
                        <gender value="male"/>
                        <birthDate value="1963-08-16"/>
                        <managingOrganization>
                            <reference value="#e04d13fe-1ce5-4da3-adba-21da70fceab7"/>
                        </managingOrganization>
                    </Patient>
                </contained>
                <contained>
                    <Practitioner>
                        <id value="dd3ab666-3c85-4a4b-be3b-340b5da415fe"/>
                        <identifier id="personal">
                            <use value="official"/>
                            <type>
                                <coding>
                                    <system value="https://github.com/interoperar/fhir-local-terminologies/identifiers/personal-identifier-type-co"/>
                                    <code value="CC"/>
                                    <display value="Cédula de Ciudadanía"/>
                                </coding>
                            </type>
                            <value value="1122334455"/>
                        </identifier>
                        <active value="true"/>
                        <name>
                            <family value="Magnolia"/>
                            <given value="Cruz"/>
                        </name>
                        <qualification>
                            <code>
                                <coding>
                                    <system value="http://snomed.info/sct"/>
                                    <code value="39677007"/>
                                    <display value="especialista en medicina interna"/>
                                </coding>
                            </code>
                        </qualification>
                    </Practitioner>
                </contained>
                <contained>
                    <Location>
                        <id value="3662348a-230c-4dca-bbf2-d78792225c18"/>
                        <identifier>
                            <use value="usual"/>
                            <value value="1100110000"/>
                        </identifier>
                        <name value="Hospital Jorge H Uribe IPS"/>
                    </Location>
                </contained>
                <contained>
                    <Device>
                        <id value="dev1"/>
                        <identifier id="SN">
                            <value value="AS0048585"/>
                        </identifier>
                        <identifier id="alias">
                            <value value="afinion"/>
                        </identifier>
                        <type>
                            <coding>
                                <system value="http://snomed.info/sct"/>
                                <code value="30234008"/>
                                <display value="Analizador de laboratorio médico"/>
                            </coding>
                        </type>
                    </Device>
                </contained>
                <contained>
                    <Observation>
                        <id value="obx1"/>
                        <status value="final"/>
                        <code>
                            <coding>
                                <system value="https://github.com/interoperar/fhir-poct-profile/terminologies/poct-tests-alere"/>
                                <code value="HbA1c"/>
                                <display value="HbA1c"/>
                            </coding>
                        </code>
                        <issued value="2018-01-01T17:06:00"/>
                        <valueQuantity>
                            <value value="5.7"/>
                            <unit value="mmol/L"/>
                        </valueQuantity>
                        <interpretation>
                            <coding>
                                <code value="N"/>
                                <display value="MEDIO"/>
                            </coding>
                        </interpretation>
                        <device>
                            <reference value="#dev1"/>
                        </device>
                        <referenceRange>
                            <text value="Desde 5 hasta 7.5"/>
                        </referenceRange>
                    </Observation>
                </contained>
                <contained>
                    <Observation>
                        <id value="obx2"/>
                        <status value="final"/>
                        <code>
                            <coding>
                                <system value="https://github.com/interoperar/fhir-poct-profile/terminologies/poct-tests-alere"/>
                                <code value="HbA1c"/>
                                <display value="HbA1c"/>
                            </coding>
                        </code>
                        <issued value="2018-01-01T17:06:00"/>
                        <valueQuantity>
                            <value value="34"/>
                            <unit value="mmol/mol"/>
                        </valueQuantity>
                        <interpretation>
                            <coding>
                                <code value="N"/>
                                <display value="MEDIO"/>
                            </coding>
                        </interpretation>
                        <device>
                            <reference value="#dev1"/>
                        </device>
                        <referenceRange>
                            <text value="Desde 25 hasta 50"/>
                        </referenceRange>
                    </Observation>
                </contained>
                <contained>
                    <Observation>
                        <id value="obx3"/>
                        <status value="final"/>
                        <code>
                            <coding>
                                <system value="https://github.com/interoperar/fhir-poct-profile/terminologies/poct-tests-alere"/>
                                <code value="eAG"/>
                                <display value="eAG"/>
                            </coding>
                        </code>
                        <issued value="2018-01-01T17:06:00"/>
                        <valueQuantity>
                            <value value="5.2"/>
                            <unit value="%"/>
                        </valueQuantity>
                        <interpretation>
                            <coding>
                                <code value="N"/>
                                <display value="MEDIO"/>
                            </coding>
                        </interpretation>
                        <device>
                            <reference value="#dev1"/>
                        </device>
                        <referenceRange>
                            <text value="Desde 5.0 hasta 7.5"/>
                        </referenceRange>
                    </Observation>
                </contained>
                <identifier>
                    <value value="59f4a9da-476e-42b7-bf54-69016bad84fa"/>
                </identifier>
                <basedOn>
                    <reference value="#343118fb-682d-4840-8dab-65c5eed12638"/>
                </basedOn>
                <status value="final"/>
                <category>
                    <coding>
                        <system value="http://snomed.info/sct"/>
                        <code value="405262001"/>
                        <display value="POCT - Point of care testing"/>
                    </coding>
                </category>
                <code>
                    <coding id="cups">
                        <system value="https://github.com/interoperar/fhir-poct-profile/terminologies/poct-services-co"/>
                        <code value="903426"/>
                        <display value="HEMOGLOBINA GLICOSILADA AUTOMATIZADA"/>
                    </coding>
                    <coding id="lis">
                        <system value="https://github.com/interoperar/fhir-poct-profile/terminologies/poct-services-co"/>
                        <code value="POCT903426"/>
                        <display value="HEMOGLOBINA GLICOSILADA POCT"/>
                    </coding>
                </code>
                <subject>
                    <reference value="#2b665d05-e7c5-455c-bf97-fcea5d81497c"/>
                </subject>
                <effectiveDateTime value="2018-01-01T17:06:00"/>
                <performer>
                    <actor>
                        <reference value="#dd3ab666-3c85-4a4b-be3b-340b5da415fe"/>
                    </actor>
                </performer>
                <performer>
                    <actor>
                        <reference value="#3662348a-230c-4dca-bbf2-d78792225c18"/>
                    </actor>
                </performer>
                <result>
                    <reference value="obx1"/>
                </result>
                <result>
                    <reference value="obx2"/>
                </result>
                <result>
                    <reference value="obx3"/>
                </result>
            </DiagnosticReport>
        </resource>
    </entry>
</Bundle>