{
    "resourceType": "Bundle",
    "id": "860fbce9-3b5b-45c6-9776-ff02bde070cc",
    "meta": {
        "versionId": "1",
        "lastUpdated": "2018-06-22T14:29:28.236+00:00"
    },
    "type": "message",
    "entry": [
        {
            "id": "messageheader",
            "resource": {
                "resourceType": "MessageHeader",
                "event": {
                    "system": "http://hl7.org/fhir/message-events",
                    "code": "diagnosticreport-provide",
                    "display": "diagnosticreport-provide"
                },
                "destination": [
                    {
                        "name": "AVICENA",
                        "endpoint": "http://127.0.0.1:9000"
                    }
                ],
                "timestamp": "2018-01-01T17:00:23",
                "source": {
                    "name": "Alere POCT Station",
                    "endpoint": "http://127.0.0.1:9001/poct"
                },
                "focus": [
                    {
                        "id": "1",
                        "reference": "#1a081845-165d-4f43-b38a-38bf271a0197"
                    }
                ]
            }
        },
        {
            "id": "messageheader.focus.1",
            "resource": {
                "resourceType": "DiagnosticReport",
                "id": "1a081845-165d-4f43-b38a-38bf271a0197",
                "contained": [
                    {
                        "resourceType": "Patient",
                        "id": "2b665d05-e7c5-455c-bf97-fcea5d81497c",
                        "identifier": [
                            {
                                "id": "personal",
                                "use": "official",
                                "type": {
                                    "coding": [
                                        {
                                            "system": "https://github.com/interoperar/fhir-local-terminologies/identifiers/personal-identifier-type-co",
                                            "code": "CC",
                                            "display": "Cédula de Ciudadanía"
                                        }
                                    ]
                                },
                                "value": "987654321"
                            },
                            {
                                "id": "clinical",
                                "use": "usual",
                                "value": "987654321"
                            }
                        ],
                        "active": true,
                        "name": [
                            {
                                "family": "Moreno Reyes",
                                "given": [
                                    "Mario",
                                    "Alfonso"
                                ]
                            }
                        ],
                        "gender": "male",
                        "birthDate": "1963-08-16",
                        "managingOrganization": {
                            "reference": "#e04d13fe-1ce5-4da3-adba-21da70fceab7"
                        }
                    },
                    {
                        "resourceType": "Location",
                        "id": "3662348a-230c-4dca-bbf2-d78792225c18",
                        "identifier": [
                            {
                                "use": "usual",
                                "value": "1100110000"
                            }
                        ],
                        "name": "Hospital Jorge H Uribe IPS"
                    },
                    {
                        "resourceType": "ProcedureRequest",
                        "id": "343118fb-682d-4840-8dab-65c5eed12638",
                        "identifier": [
                            {
                                "value": "54269347602"
                            }
                        ],
                        "requisition": {
                            "value": "542693476"
                        },
                        "status": "active",
                        "intent": "order",
                        "priority": "routine",
                        "category": [
                            {
                                "coding": [
                                    {
                                        "system": "http://snomed.info/sct",
                                        "code": "405262001",
                                        "display": "POCT - Point of care testing"
                                    }
                                ]
                            }
                        ],
                        "code": {
                            "coding": [
                                {
                                    "id": "cups",
                                    "system": "https://github.com/interoperar/fhir-poct-profile/terminologies/poct-services-co",
                                    "code": "903426",
                                    "display": "HEMOGLOBINA GLICOSILADA AUTOMATIZADA"
                                },
                                {
                                    "id": "lis",
                                    "system": "https://github.com/interoperar/fhir-poct-profile/terminologies/poct-services-co",
                                    "code": "POCT903426",
                                    "display": "HEMOGLOBINA GLICOSILADA POCT"
                                }
                            ]
                        },
                        "subject": {
                            "reference": "#2b665d05-e7c5-455c-bf97-fcea5d81497c"
                        },
                        "authoredOn": "2018-01-01T17:00:23",
                        "requester": {
                            "agent": {
                                "reference": "#34168b25-045a-45ad-8f16-700a13fda583"
                            }
                        },
                        "supportingInfo": [
                            {
                                "id": "requesterlocation",
                                "reference": "#3662348a-230c-4dca-bbf2-d78792225c18"
                            }
                        ],
                        "note": [
                            {
                                "text": "Se solicita pruebas diagnósticas rápidas"
                            }
                        ]
                    },
                    {
                        "resourceType": "Practitioner",
                        "id": "dd3ab666-3c85-4a4b-be3b-340b5da415fe",
                        "identifier": [
                            {
                                "id": "personal",
                                "use": "official",
                                "type": {
                                    "coding": [
                                        {
                                            "system": "https://github.com/interoperar/fhir-local-terminologies/identifiers/personal-identifier-type-co",
                                            "code": "CC",
                                            "display": "Cédula de Ciudadanía"
                                        }
                                    ]
                                },
                                "value": "1122334455"
                            }
                        ],
                        "active": true,
                        "name": [
                            {
                                "family": "Magnolia",
                                "given": [
                                    "Cruz"
                                ]
                            }
                        ],
                        "qualification": [
                            {
                                "code": {
                                    "coding": [
                                        {
                                            "system": "http://snomed.info/sct",
                                            "code": "39677007",
                                            "display": "especialista en medicina interna"
                                        }
                                    ]
                                }
                            }
                        ]
                    }
                ],
                "identifier": [
                    {
                        "value": "59f4a9da-476e-42b7-bf54-69016bad84fa"
                    }
                ],
                "basedOn": [
                    {
                        "reference": "#343118fb-682d-4840-8dab-65c5eed12638"
                    }
                ],
                "status": "final",
                "category": {
                    "coding": [
                        {
                            "system": "http://snomed.info/sct",
                            "code": "405262001",
                            "display": "POCT - Point of care testing"
                        }
                    ]
                },
                "code": {
                    "coding": [
                        {
                            "id": "cups",
                            "system": "https://github.com/interoperar/fhir-poct-profile/terminologies/poct-services-co",
                            "code": "903426",
                            "display": "HEMOGLOBINA GLICOSILADA AUTOMATIZADA"
                        },
                        {
                            "id": "lis",
                            "system": "https://github.com/interoperar/fhir-poct-profile/terminologies/poct-services-co",
                            "code": "POCT903426",
                            "display": "HEMOGLOBINA GLICOSILADA POCT"
                        }
                    ]
                },
                "subject": {
                    "reference": "#2b665d05-e7c5-455c-bf97-fcea5d81497c"
                },
                "effectiveDateTime": "2018-01-01T17:06:00",
                "performer": [
                    {
                        "actor": {
                            "reference": "#dd3ab666-3c85-4a4b-be3b-340b5da415fe"
                        }
                    },
                    {
                        "actor": {
                            "reference": "#3662348a-230c-4dca-bbf2-d78792225c18"
                        }
                    }
                ],
                "result": [
                    {
                        "reference": "obx1"
                    },
                    {
                        "reference": "obx2"
                    },
                    {
                        "reference": "obx3"
                    }
                ]
            }
        }
    ]
}